File: Rigaku_Lab_XRD/SIO2_100%_conv.xy
# scan speed: 1.0
# theta min: 5.0
# theta_max: 85.0
# spacing: 0.05
# two theta, intensity
5.0 76.0
5.1 69.0
5.2 81.6667
5.3 70.0
5.4 79.6667
5.5 68.6667
5.6 77.6667
5.7 86.3333
5.8 80.0
5.9 84.3333
6 89.0
6.1 91.6667
6.2 94.0
6.3 97.6667
6.4 96.3333
6.5 111.333
6.6 102.667
6.7 101.667
6.8 105.333
6.9 108.667
7 111.333
7.1 107.667
7.2 106.667
7.3 118.0
7.4 112.333
7.5 125.0
7.6 116.667
7.7 114.0
7.8 114.0
7.9 127.667
8 135.667
8.1 125.0
8.2 119.0
8.3 127.0
8.4 125.667
8.5 125.333
8.6 142.667
8.7 138.0
8.8 132.0
8.9 151.0
9 155.0
9.1 148.667
9.2 144.667
9.3 157.0
9.4 146.667
9.5 150.333
9.6 144.667
9.7 151.333
9.8 152.667
9.9 145.333
10 153.0
10.1 161.333
10.2 158.0
10.3 157.0
10.4 159.333
10.5 165.667
10.6 147.0
10.7 164.333
10.8 168.667
10.9 156.333
11 163.333
11.1 167.667
11.2 159.333
11.3 174.667
11.4 169.0
11.5 173.333
11.6 158.0
11.7 157.667
11.8 165.333
11.9 158.333
12 160.0
12.1 158.0
12.2 162.0
12.3 155.667
12.4 155.667
12.5 159.333
12.6 164.333
12.7 159.0
12.8 152.667
12.9 158.333
13 150.667
13.1 154.667
13.2 157.333
13.3 168.0
13.4 158.667
13.5 154.667
13.6 158.0
13.7 157.667
13.8 162.0
13.9 155.0
14 161.667
14.1 153.333
14.2 157.667
14.3 164.333
14.4 160.667
14.5 147.333
14.6 157.667
14.7 149.333
14.8 161.0
14.9 157.667
15 171.667
15.1 160.667
15.2 160.333
15.3 151.0
15.4 162.667
15.5 170.0
15.6 173.333
15.7 153.667
15.8 177.667
15.9 163.0
16 166.333
16.1 162.333
16.2 170.333
16.3 175.0
16.4 181.0
16.5 189.667
16.6 187.667
16.7 190.667
16.8 165.333
16.9 178.333
17 180.667
17.1 188.333
17.2 181.667
17.3 190.0
17.4 188.333
17.5 196.333
17.6 191.333
17.7 198.0
17.8 215.333
17.9 203.667
18 216.667
18.1 216.667
18.2 212.0
18.3 218.667
18.4 218.0
18.5 229.667
18.6 229.0
18.7 247.667
18.8 249.667
18.9 255.667
19 227.0
19.1 231.667
19.2 252.667
19.3 278.0
19.4 263.333
19.5 256.333
19.6 287.0
19.7 267.333
19.8 270.0
19.9 285.667
20 277.0
20.1 307.667
20.2 294.667
20.3 306.667
20.4 293.667
20.5 299.667
20.6 293.667
20.7 302.667
20.8 310.333
20.9 330.0
21 315.333
21.1 309.333
21.2 321.667
21.3 325.333
21.4 315.333
21.5 332.0
21.6 332.333
21.7 324.0
21.8 314.667
21.9 338.0
22 297.667
22.1 333.333
22.2 334.0
22.3 335.333
22.4 331.667
22.5 324.0
22.6 311.333
22.7 309.333
22.8 311.333
22.9 298.0
23 301.333
23.1 311.0
23.2 307.667
23.3 302.0
23.4 295.0
23.5 307.0
23.6 294.333
23.7 293.333
23.8 299.667
23.9 281.667
24 298.667
24.1 261.333
24.2 283.667
24.3 277.667
24.4 273.667
24.5 259.333
24.6 278.667
24.7 266.0
24.8 274.667
24.9 269.333
25 271.333
25.1 251.0
25.2 259.333
25.3 245.667
25.4 257.0
25.5 267.0
25.6 247.0
25.7 249.667
25.8 243.667
25.9 235.333
26 245.667
26.1 242.0
26.2 240.667
26.3 238.0
26.4 248.0
26.5 231.333
26.6 224.0
26.7 230.333
26.8 218.0
26.9 228.333
27 228.0
27.1 205.333
27.2 215.667
27.3 210.0
27.4 232.333
27.5 222.0
27.6 217.0
27.7 219.667
27.8 205.0
27.9 200.333
28 220.667
28.1 212.667
28.2 219.667
28.3 212.333
28.4 203.667
28.5 202.667
28.6 199.0
28.7 181.0
28.8 209.333
28.9 200.333
29 194.0
29.1 209.333
29.2 202.333
29.3 201.667
29.4 191.333
29.5 185.333
29.6 195.667
29.7 193.333
29.8 196.667
29.9 202.0
30 180.667
30.1 195.667
30.2 201.667
30.3 182.667
30.4 176.0
30.5 187.667
30.6 185.333
30.7 197.333
30.8 199.333
30.9 205.667
31 186.667
31.1 180.0
31.2 182.667
31.3 183.667
31.4 183.0
31.5 188.0
31.6 192.333
31.7 188.333
31.8 172.667
31.9 189.0
32 176.667
32.1 202.333
32.2 184.0
32.3 184.667
32.4 199.0
32.5 186.333
32.6 170.667
32.7 185.0
32.8 186.333
32.9 167.667
33 185.667
33.1 181.0
33.2 182.0
33.3 193.0
33.4 178.0
33.5 187.0
33.6 176.667
33.7 196.0
33.8 156.333
33.9 182.667
34 167.667
34.1 169.667
34.2 180.667
34.3 182.667
34.4 169.667
34.5 175.667
34.6 181.333
34.7 173.667
34.8 176.333
34.9 178.0
35 169.667
35.1 184.667
35.2 167.0
35.3 167.667
35.4 163.333
35.5 168.0
35.6 158.0
35.7 154.0
35.8 167.333
35.9 164.667
36 174.0
36.1 167.0
36.2 185.667
36.3 184.0
36.4 163.0
36.5 167.333
36.6 182.333
36.7 157.333
36.8 167.333
36.9 167.0
37 175.333
37.1 161.333
37.2 166.333
37.3 172.0
37.4 155.0
37.5 158.333
37.6 154.333
37.7 158.333
37.8 167.333
37.9 160.333
38 159.667
38.1 164.667
38.2 150.0
38.3 151.0
38.4 152.667
38.5 149.333
38.6 177.333
38.7 158.0
38.8 151.333
38.9 154.667
39 157.667
39.1 140.0
39.2 155.667
39.3 156.333
39.4 146.333
39.5 162.333
39.6 134.333
39.7 151.0
39.8 151.333
39.9 154.0
40 149.0
40.1 150.333
40.2 145.333
40.3 143.333
40.4 152.333
40.5 129.667
40.6 141.0
40.7 144.0
40.8 138.0
40.9 140.333
41 146.667
41.1 138.0
41.2 151.0
41.3 149.333
41.4 141.333
41.5 136.667
41.6 149.0
41.7 145.0
41.8 154.333
41.9 138.0
42 147.0
42.1 131.333
42.2 150.333
42.3 142.333
42.4 139.667
42.5 143.667
42.6 151.0
42.7 153.667
42.8 155.333
42.9 146.0
43 153.333
43.1 138.667
43.2 137.333
43.3 146.333
43.4 156.0
43.5 152.0
43.6 136.0
43.7 145.667
43.8 145.667
43.9 148.0
44 152.0
44.1 155.667
44.2 131.333
44.3 135.667
44.4 151.333
44.5 149.667
44.6 148.333
44.7 143.667
44.8 151.667
44.9 161.333
45 153.667
45.1 134.667
45.2 157.0
45.3 150.667
45.4 139.667
45.5 159.0
45.6 152.667
45.7 160.0
45.8 138.333
45.9 150.0
46 143.0
46.1 137.667
46.2 162.0
46.3 156.333
46.4 169.0
46.5 158.333
46.6 155.667
46.7 142.333
46.8 127.667
46.9 148.333
47 160.333
47.1 136.0
47.2 153.333
47.3 151.333
47.4 138.0
47.5 140.667
47.6 139.333
47.7 147.0
47.8 143.333
47.9 155.667
48 146.333
48.1 146.333
48.2 137.667
48.3 154.0
48.4 149.0
48.5 138.333
48.6 157.667
48.7 145.333
48.8 152.667
48.9 146.667
49 148.0
49.1 139.667
49.2 149.667
49.3 153.667
49.4 145.333
49.5 151.333
49.6 143.0
49.7 151.0
49.8 150.0
49.9 155.667
50 148.0
50.1 139.333
50.2 153.333
50.3 138.667
50.4 141.333
50.5 143.0
50.6 150.333
50.7 140.333
50.8 157.667
50.9 150.0
51 146.333
51.1 150.667
51.2 153.0
51.3 158.667
51.4 137.333
51.5 138.667
51.6 143.333
51.7 141.0
51.8 144.333
51.9 152.667
52 150.0
52.1 144.667
52.2 142.0
52.3 134.667
52.4 153.0
52.5 150.0
52.6 143.333
52.7 140.0
52.8 138.0
52.9 140.0
53 142.333
53.1 147.667
53.2 151.0
53.3 153.667
53.4 154.0
53.5 152.333
53.6 146.333
53.7 151.0
53.8 143.333
53.9 153.333
54 167.333
54.1 153.667
54.2 143.0
54.3 137.0
54.4 143.667
54.5 141.0
54.6 152.0
54.7 151.0
54.8 147.0
54.9 155.333
55 143.0
55.1 136.667
55.2 163.0
55.3 138.667
55.4 158.333
55.5 157.667
55.6 144.0
55.7 144.333
55.8 159.667
55.9 150.333
56 156.0
56.1 161.333
56.2 151.333
56.3 152.0
56.4 156.333
56.5 155.0
56.6 147.0
56.7 154.0
56.8 153.0
56.9 152.667
57 152.667
57.1 157.667
57.2 142.333
57.3 160.667
57.4 164.667
57.5 166.667
57.6 155.333
57.7 154.0
57.8 153.667
57.9 151.333
58 159.0
58.1 152.333
58.2 154.0
58.3 163.333
58.4 154.0
58.5 155.0
58.6 170.667
58.7 158.0
58.8 154.0
58.9 153.333
59 173.0
59.1 143.333
59.2 163.0
59.3 167.0
59.4 165.333
59.5 167.667
59.6 154.667
59.7 162.667
59.8 167.0
59.9 156.0
60 157.667
60.1 171.667
60.2 158.0
60.3 157.0
60.4 148.0
60.5 165.333
60.6 157.667
60.7 166.333
60.8 183.667
60.9 168.667
61 154.333
61.1 169.667
61.2 175.333
61.3 164.333
61.4 170.0
61.5 179.667
61.6 181.667
61.7 170.667
61.8 179.0
61.9 170.667
62 167.0
62.1 162.667
62.2 159.0
62.3 166.667
62.4 180.333
62.5 156.333
62.6 166.333
62.7 163.0
62.8 172.0
62.9 170.333
63 178.333
63.1 168.667
63.2 175.0
63.3 185.0
63.4 174.0
63.5 164.667
63.6 173.667
63.7 178.333
63.8 191.0
63.9 181.333
64 178.0
64.1 170.667
64.2 176.667
64.3 178.0
64.4 181.333
64.5 175.0
64.6 179.0
64.7 158.333
64.8 172.333
64.9 167.667
65 169.333
65.1 178.0
65.2 179.667
65.3 165.667
65.4 182.667
65.5 169.667
65.6 181.667
65.7 177.0
65.8 170.0
65.9 179.0
66 174.333
66.1 174.333
66.2 175.333
66.3 179.333
66.4 182.667
66.5 187.0
66.6 179.333
66.7 167.0
66.8 171.0
66.9 167.0
67 183.0
67.1 178.0
67.2 181.333
67.3 177.0
67.4 174.0
67.5 169.333
67.6 165.333
67.7 181.333
67.8 160.333
67.9 184.333
68 168.0
68.1 175.0
68.2 166.333
68.3 174.0
68.4 177.667
68.5 177.333
68.6 183.333
68.7 164.333
68.8 180.667
68.9 178.667
69 173.333
69.1 176.667
69.2 161.0
69.3 182.0
69.4 167.0
69.5 189.667
69.6 173.0
69.7 177.333
69.8 170.667
69.9 176.333
70 192.667
70.1 176.667
70.2 177.0
70.3 175.667
70.4 171.0
70.5 185.0
70.6 174.333
70.7 170.667
70.8 178.667
70.9 168.0
71 173.333
71.1 170.0
71.2 188.667
71.3 169.667
71.4 176.667
71.5 177.667
71.6 164.333
71.7 181.333
71.8 174.333
71.9 183.667
72 185.333
72.1 188.0
72.2 185.0
72.3 183.667
72.4 193.333
72.5 180.0
72.6 181.333
72.7 167.667
72.8 187.333
72.9 188.667
73 184.0
73.1 177.667
73.2 168.0
73.3 167.333
73.4 186.333
73.5 179.333
73.6 181.333
73.7 182.0
73.8 185.667
73.9 192.0
74 186.0
74.1 171.0
74.2 180.0
74.3 174.667
74.4 182.667
74.5 184.0
74.6 185.667
74.7 170.0
74.8 170.0
74.9 184.667
75 190.333
75.1 186.667
75.2 179.0
75.3 169.333
75.4 185.333
75.5 171.667
75.6 178.333
75.7 177.333
75.8 179.333
75.9 183.667
76 170.333
76.1 175.667
76.2 180.0
76.3 184.667
76.4 178.0
76.5 182.0
76.6 181.333
76.7 176.667
76.8 184.0
76.9 166.0
77 178.0
77.1 182.0
77.2 172.333
77.3 180.333
77.4 188.0
77.5 190.667
77.6 186.667
77.7 181.0
77.8 179.667
77.9 191.333
78 178.333
78.1 178.667
78.2 179.667
78.3 176.333
78.4 177.0
78.5 177.0
78.6 185.333
78.7 175.667
78.8 172.0
78.9 188.667
79 175.333
79.1 181.0
79.2 185.333
79.3 171.667
79.4 169.667
79.5 184.333
79.6 187.667
79.7 180.333
79.8 177.333
79.9 171.667
80 166.667
80.1 176.333
80.2 178.0
80.3 172.333
80.4 170.667
80.5 177.333
80.6 176.667
80.7 171.0
80.8 181.667
80.9 176.667
81 170.0
81.1 175.0
81.2 171.333
81.3 169.333
81.4 167.667
81.5 172.667
81.6 171.0
81.7 154.333
81.8 165.333
81.9 171.333
82 165.667
82.1 167.0
82.2 164.333
82.3 174.0
82.4 154.667
82.5 169.333
82.6 164.667
82.7 167.0
82.8 157.333
82.9 169.0
83 153.667
83.1 153.0
83.2 164.667
83.3 160.667
83.4 159.333
83.5 150.0
83.6 159.333
83.7 161.0
83.8 156.333
83.9 151.333
84 160.667
84.1 159.667
84.2 149.333
84.3 144.333
84.4 154.667
84.5 143.667
84.6 134.0
84.7 140.333
84.8 150.0