File: Rigaku_Lab_XRD/SIO2_quartz_conv.xy
# scan speed: 2.0
# theta min: 5.0
# theta_max: 85.0
# spacing: 0.05
# two theta, intensity
5.0 38.6667
5.1 43.3333
5.2 62.0
5.3 49.3333
5.4 56.6667
5.5 52.0
5.6 55.3333
5.7 58.6667
5.8 68.0
5.9 60.0
6 54.6667
6.1 78.0
6.2 50.0
6.3 60.6667
6.4 50.6667
6.5 61.3333
6.6 71.3333
6.7 69.3333
6.8 52.6667
6.9 66.0
7 59.3333
7.1 63.3333
7.2 56.0
7.3 68.6667
7.4 67.3333
7.5 86.0
7.6 54.0
7.7 65.3333
7.8 62.6667
7.9 68.6667
8 58.0
8.1 65.3333
8.2 71.3333
8.3 74.0
8.4 64.0
8.5 84.0
8.6 62.0
8.7 80.0
8.8 75.3333
8.9 71.3333
9 80.0
9.1 82.6667
9.2 78.0
9.3 83.3333
9.4 89.3333
9.5 91.3333
9.6 92.0
9.7 100.0
9.8 88.6667
9.9 78.6667
10 73.3333
10.1 82.0
10.2 74.6667
10.3 86.0
10.4 81.3333
10.5 86.0
10.6 100.667
10.7 82.0
10.8 102.667
10.9 90.6667
11 98.0
11.1 96.6667
11.2 97.3333
11.3 80.0
11.4 88.0
11.5 108.0
11.6 108.667
11.7 101.333
11.8 108.0
11.9 88.6667
12 94.6667
12.1 98.0
12.2 90.6667
12.3 101.333
12.4 93.3333
12.5 98.6667
12.6 86.6667
12.7 103.333
12.8 100.0
12.9 84.0
13 96.6667
13.1 81.3333
13.2 82.6667
13.3 90.6667
13.4 90.0
13.5 86.0
13.6 98.6667
13.7 74.6667
13.8 66.6667
13.9 62.6667
14 74.0
14.1 84.6667
14.2 70.6667
14.3 65.3333
14.4 62.0
14.5 74.0
14.6 75.3333
14.7 77.3333
14.8 70.6667
14.9 67.3333
15 61.3333
15.1 72.0
15.2 56.0
15.3 71.3333
15.4 92.0
15.5 76.6667
15.6 58.6667
15.7 68.0
15.8 68.6667
15.9 58.0
16 71.3333
16.1 67.3333
16.2 65.3333
16.3 69.3333
16.4 82.0
16.5 63.3333
16.6 64.0
16.7 66.0
16.8 69.3333
16.9 70.6667
17 61.3333
17.1 58.6667
17.2 70.6667
17.3 67.3333
17.4 74.6667
17.5 71.3333
17.6 70.0
17.7 66.6667
17.8 68.6667
17.9 76.0
18 74.6667
18.1 54.0
18.2 68.0
18.3 69.3333
18.4 71.3333
18.5 78.6667
18.6 77.3333
18.7 88.6667
18.8 72.6667
18.9 82.6667
19 66.0
19.1 69.3333
19.2 77.3333
19.3 72.6667
19.4 75.3333
19.5 73.3333
19.6 89.3333
19.7 70.0
19.8 76.0
19.9 72.6667
20 64.0
20.1 100.0
20.2 80.0
20.3 78.6667
20.4 94.0
20.5 108.0
20.6 207.333
20.7 1556.67
20.8 1198.67
20.9 120.0
21 104.667
21.1 90.0
21.2 88.6667
21.3 87.3333
21.4 77.3333
21.5 84.0
21.6 86.0
21.7 72.0
21.8 82.6667
21.9 84.0
22 102.0
22.1 95.3333
22.2 85.3333
22.3 80.6667
22.4 85.3333
22.5 81.3333
22.6 74.6667
22.7 81.3333
22.8 83.3333
22.9 92.0
23 70.6667
23.1 90.0
23.2 79.3333
23.3 93.3333
23.4 94.6667
23.5 94.0
23.6 90.6667
23.7 88.0
23.8 80.0
23.9 78.0
24 86.6667
24.1 85.3333
24.2 62.0
24.3 80.6667
24.4 98.0
24.5 86.0
24.6 96.6667
24.7 78.6667
24.8 92.6667
24.9 92.0
25 80.0
25.1 93.3333
25.2 82.0
25.3 82.6667
25.4 89.3333
25.5 98.6667
25.6 88.6667
25.7 86.0
25.8 83.3333
25.9 96.0
26 111.333
26.1 130.0
26.2 148.0
26.3 226.667
26.4 374.0
26.5 203.333
26.6 114.667
26.7 121.333
26.8 105.333
26.9 96.6667
27 88.0
27.1 88.6667
27.2 85.3333
27.3 99.3333
27.4 90.0
27.5 93.3333
27.6 80.0
27.7 103.333
27.8 120.667
27.9 85.3333
28 103.333
28.1 99.3333
28.2 81.3333
28.3 94.0
28.4 88.0
28.5 115.333
28.6 96.0
28.7 83.3333
28.8 99.3333
28.9 105.333
29 96.6667
29.1 98.0
29.2 94.0
29.3 91.3333
29.4 108.667
29.5 98.6667
29.6 109.333
29.7 95.3333
29.8 91.3333
29.9 97.3333
30 100.667
30.1 88.0
30.2 90.6667
30.3 92.0
30.4 92.0
30.5 81.3333
30.6 103.333
30.7 101.333
30.8 92.6667
30.9 87.3333
31 84.0
31.1 92.6667
31.2 91.3333
31.3 86.0
31.4 105.333
31.5 110.0
31.6 84.6667
31.7 92.6667
31.8 85.3333
31.9 76.6667
32 96.6667
32.1 87.3333
32.2 97.3333
32.3 84.0
32.4 91.3333
32.5 82.6667
32.6 82.0
32.7 76.0
32.8 91.3333
32.9 81.3333
33 87.3333
33.1 86.6667
33.2 95.3333
33.3 93.3333
33.4 94.0
33.5 92.6667
33.6 87.3333
33.7 68.6667
33.8 90.6667
33.9 85.3333
34 76.0
34.1 88.0
34.2 80.0
34.3 90.6667
34.4 87.3333
34.5 90.6667
34.6 80.0
34.7 83.3333
34.8 89.3333
34.9 96.0
35 86.0
35.1 87.3333
35.2 93.3333
35.3 81.3333
35.4 117.333
35.5 82.0
35.6 84.0
35.7 78.6667
35.8 86.0
35.9 82.0
36 85.3333
36.1 82.6667
36.2 81.3333
36.3 98.6667
36.4 127.333
36.5 111.333
36.6 81.3333
36.7 83.3333
36.8 84.6667
36.9 90.6667
37 86.0
37.1 86.6667
37.2 66.6667
37.3 83.3333
37.4 83.3333
37.5 82.0
37.6 82.6667
37.7 77.3333
37.8 70.6667
37.9 106.0
38 112.667
38.1 96.6667
38.2 97.3333
38.3 96.6667
38.4 92.6667
38.5 92.6667
38.6 72.0
38.7 86.6667
38.8 104.667
38.9 106.667
39 114.667
39.1 210.667
39.2 394.0
39.3 4967.33
39.4 3026.0
39.5 509.333
39.6 143.333
39.7 127.333
39.8 96.6667
39.9 98.6667
40 159.333
40.1 265.333
40.2 177.333
40.3 97.3333
40.4 87.3333
40.5 85.3333
40.6 78.6667
40.7 79.3333
40.8 82.6667
40.9 98.0
41 92.0
41.1 106.0
41.2 76.6667
41.3 91.3333
41.4 74.0
41.5 99.3333
41.6 95.3333
41.7 102.667
41.8 82.0
41.9 86.6667
42 116.667
42.1 388.0
42.2 1204.67
42.3 1143.33
42.4 415.333
42.5 114.667
42.6 90.6667
42.7 79.3333
42.8 70.0
42.9 62.0
43 66.6667
43.1 90.0
43.2 81.3333
43.3 68.0
43.4 86.0
43.5 75.3333
43.6 81.3333
43.7 73.3333
43.8 85.3333
43.9 65.3333
44 67.3333
44.1 75.3333
44.2 77.3333
44.3 70.6667
44.4 82.0
44.5 82.6667
44.6 72.6667
44.7 86.0
44.8 95.3333
44.9 91.3333
45 68.6667
45.1 70.6667
45.2 72.6667
45.3 80.6667
45.4 76.6667
45.5 118.667
45.6 147.333
45.7 138.667
45.8 110.0
45.9 83.3333
46 86.6667
46.1 70.0
46.2 60.6667
46.3 80.6667
46.4 63.3333
46.5 68.0
46.6 75.3333
46.7 82.0
46.8 69.3333
46.9 66.6667
47 82.6667
47.1 72.6667
47.2 82.6667
47.3 64.0
47.4 81.3333
47.5 72.6667
47.6 75.3333
47.7 71.3333
47.8 76.6667
47.9 69.3333
48 82.0
48.1 78.0
48.2 73.3333
48.3 74.0
48.4 84.0
48.5 74.6667
48.6 68.0
48.7 81.3333
48.8 62.0
48.9 72.0
49 92.0
49.1 100.667
49.2 64.6667
49.3 69.3333
49.4 114.0
49.5 75.3333
49.6 95.3333
49.7 70.0
49.8 131.333
49.9 414.0
50 705.333
50.1 534.0
50.2 110.667
50.3 95.3333
50.4 85.3333
50.5 77.3333
50.6 87.3333
50.7 66.0
50.8 60.0
50.9 66.0
51 74.6667
51.1 60.0
51.2 71.3333
51.3 82.6667
51.4 58.6667
51.5 61.3333
51.6 82.0
51.7 69.3333
51.8 69.3333
51.9 68.0
52 68.0
52.1 60.0
52.2 69.3333
52.3 64.0
52.4 78.6667
52.5 84.0
52.6 64.0
52.7 71.3333
52.8 70.6667
52.9 66.6667
53 64.0
53.1 72.6667
53.2 74.0
53.3 79.3333
53.4 80.0
53.5 80.0
53.6 88.0
53.7 75.3333
53.8 70.6667
53.9 76.6667
54 70.0
54.1 72.6667
54.2 70.0
54.3 86.6667
54.4 102.0
54.5 112.0
54.6 341.333
54.7 1465.33
54.8 711.333
54.9 333.333
55 113.333
55.1 296.0
55.2 168.0
55.3 263.333
55.4 90.0
55.5 79.3333
55.6 87.3333
55.7 81.3333
55.8 71.3333
55.9 84.6667
56 70.6667
56.1 77.3333
56.2 78.6667
56.3 73.3333
56.4 71.3333
56.5 80.0
56.6 79.3333
56.7 71.3333
56.8 71.3333
56.9 80.0
57 82.0
57.1 76.0
57.2 68.6667
57.3 67.3333
57.4 70.0
57.5 77.3333
57.6 85.3333
57.7 79.3333
57.8 78.0
57.9 91.3333
58 83.3333
58.1 92.0
58.2 81.3333
58.3 79.3333
58.4 86.0
58.5 74.6667
58.6 70.0
58.7 80.0
58.8 76.0
58.9 77.3333
59 86.6667
59.1 93.3333
59.2 94.6667
59.3 79.3333
59.4 109.333
59.5 102.0
59.6 190.667
59.7 760.667
59.8 747.333
59.9 638.667
60 178.667
60.1 112.0
60.2 96.6667
60.3 82.6667
60.4 78.6667
60.5 84.0
60.6 78.6667
60.7 74.0
60.8 74.0
60.9 90.0
61 76.6667
61.1 88.0
61.2 78.6667
61.3 64.0
61.4 88.6667
61.5 85.3333
61.6 95.3333
61.7 80.0
61.8 68.6667
61.9 82.0
62 76.0
62.1 86.6667
62.2 80.0
62.3 86.0
62.4 72.0
62.5 70.6667
62.6 70.6667
62.7 83.3333
62.8 88.0
62.9 80.0
63 92.0
63.1 86.0
63.2 86.6667
63.3 81.3333
63.4 101.333
63.5 91.3333
63.6 98.6667
63.7 132.0
63.8 368.0
63.9 228.667
64 208.667
64.1 127.333
64.2 102.0
64.3 101.333
64.4 90.0
64.5 93.3333
64.6 97.3333
64.7 93.3333
64.8 94.6667
64.9 86.0
65 98.6667
65.1 88.6667
65.2 104.0
65.3 80.0
65.4 122.667
65.5 292.0
65.6 174.667
65.7 220.0
65.8 114.667
65.9 111.333
66 114.0
66.1 81.3333
66.2 94.0
66.3 94.6667
66.4 100.667
66.5 77.3333
66.6 108.667
66.7 90.6667
66.8 98.0
66.9 86.0
67 95.3333
67.1 111.333
67.2 122.667
67.3 126.0
67.4 264.667
67.5 1192.67
67.6 584.0
67.7 730.0
67.8 469.333
67.9 2309.33
68 1494.67
68.1 1332.67
68.2 654.667
68.3 148.0
68.4 127.333
68.5 108.0
68.6 103.333
68.7 111.333
68.8 115.333
68.9 105.333
69 106.667
69.1 108.0
69.2 82.0
69.3 107.333
69.4 88.0
69.5 78.0
69.6 90.6667
69.7 97.3333
69.8 95.3333
69.9 88.6667
70 92.6667
70.1 86.6667
70.2 101.333
70.3 90.6667
70.4 100.0
70.5 90.6667
70.6 102.667
70.7 85.3333
70.8 85.3333
70.9 96.6667
71 88.0
71.1 94.0
71.2 93.3333
71.3 89.3333
71.4 86.6667
71.5 94.6667
71.6 93.3333
71.7 100.0
71.8 89.3333
71.9 91.3333
72 84.6667
72.1 84.6667
72.2 98.0
72.3 103.333
72.4 103.333
72.5 99.3333
72.6 88.6667
72.7 94.6667
72.8 83.3333
72.9 92.0
73 108.0
73.1 118.667
73.2 237.333
73.3 126.667
73.4 136.0
73.5 104.667
73.6 96.6667
73.7 92.6667
73.8 107.333
73.9 85.3333
74 108.667
74.1 98.6667
74.2 75.3333
74.3 94.6667
74.4 84.0
74.5 90.0
74.6 82.0
74.7 98.0
74.8 86.6667
74.9 102.667
75 98.0
75.1 94.6667
75.2 102.667
75.3 123.333
75.4 448.667
75.5 611.333
75.6 298.667
75.7 378.0
75.8 122.0
75.9 101.333
76 86.0
76.1 94.6667
76.2 88.0
76.3 86.6667
76.4 87.3333
76.5 99.3333
76.6 83.3333
76.7 94.6667
76.8 91.3333
76.9 88.6667
77 85.3333
77.1 102.0
77.2 98.6667
77.3 102.0
77.4 102.0
77.5 138.667
77.6 146.0
77.7 93.3333
77.8 104.0
77.9 84.0
78 95.3333
78.1 86.6667
78.2 86.0
78.3 89.3333
78.4 95.3333
78.5 100.0
78.6 86.0
78.7 83.3333
78.8 105.333
78.9 94.6667
79 100.0
79.1 105.333
79.2 85.3333
79.3 94.6667
79.4 122.0
79.5 158.667
79.6 253.333
79.7 192.667
79.8 386.0
79.9 233.333
80 198.667
80.1 170.0
80.2 90.0
80.3 101.333
80.4 82.0
80.5 108.667
80.6 96.6667
80.7 104.667
80.8 132.667
80.9 729.333
81 264.667
81.1 243.333
81.2 433.333
81.3 277.333
81.4 190.667
81.5 146.0
81.6 163.333
81.7 102.667
81.8 107.333
81.9 111.333
82 105.333
82.1 89.3333
82.2 86.0
82.3 86.6667
82.4 90.0
82.5 88.6667
82.6 87.3333
82.7 92.0
82.8 100.667
82.9 83.3333
83 90.6667
83.1 94.6667
83.2 88.6667
83.3 102.0
83.4 110.667
83.5 144.667
83.6 97.3333
83.7 121.333
83.8 116.667
83.9 98.0
84 107.333
84.1 95.3333
84.2 93.3333
84.3 99.3333
84.4 84.0
84.5 78.6667
84.6 92.0
84.7 215.333
84.8 166.0