File: Rigaku_Lab_XRD/XRD_empty_cal_conv.xy
# scan speed: 3.0
# theta min: 5.0
# theta_max: 85.0
# spacing: 0.05
# two theta, intensity
5.0 28.0
5.1 34.0
5.2 36.0
5.3 64.0
5.4 47.0
5.5 57.0
5.6 66.0
5.7 56.0
5.8 64.0
5.9 68.0
6 55.0
6.1 55.0
6.2 61.0
6.3 63.0
6.4 67.0
6.5 59.0
6.6 69.0
6.7 60.0
6.8 60.0
6.9 53.0
7 61.0
7.1 51.0
7.2 63.0
7.3 60.0
7.4 51.0
7.5 50.0
7.6 53.0
7.7 55.0
7.8 62.0
7.9 40.0
8 60.0
8.1 45.0
8.2 44.0
8.3 36.0
8.4 61.0
8.5 54.0
8.6 53.0
8.7 46.0
8.8 52.0
8.9 47.0
9 50.0
9.1 45.0
9.2 44.0
9.3 57.0
9.4 45.0
9.5 50.0
9.6 45.0
9.7 49.0
9.8 48.0
9.9 48.0
10 48.0
10.1 58.0
10.2 49.0
10.3 56.0
10.4 47.0
10.5 38.0
10.6 47.0
10.7 48.0
10.8 53.0
10.9 53.0
11 59.0
11.1 50.0
11.2 43.0
11.3 46.0
11.4 51.0
11.5 45.0
11.6 55.0
11.7 43.0
11.8 45.0
11.9 48.0
12 53.0
12.1 52.0
12.2 52.0
12.3 51.0
12.4 41.0
12.5 40.0
12.6 59.0
12.7 45.0
12.8 64.0
12.9 48.0
13 56.0
13.1 40.0
13.2 41.0
13.3 37.0
13.4 41.0
13.5 53.0
13.6 36.0
13.7 41.0
13.8 54.0
13.9 57.0
14 49.0
14.1 53.0
14.2 42.0
14.3 44.0
14.4 48.0
14.5 50.0
14.6 54.0
14.7 43.0
14.8 40.0
14.9 54.0
15 53.0
15.1 41.0
15.2 38.0
15.3 39.0
15.4 39.0
15.5 43.0
15.6 55.0
15.7 46.0
15.8 35.0
15.9 41.0
16 37.0
16.1 48.0
16.2 42.0
16.3 47.0
16.4 31.0
16.5 42.0
16.6 38.0
16.7 50.0
16.8 42.0
16.9 51.0
17 38.0
17.1 37.0
17.2 30.0
17.3 47.0
17.4 54.0
17.5 35.0
17.6 39.0
17.7 42.0
17.8 35.0
17.9 25.0
18 32.0
18.1 49.0
18.2 33.0
18.3 33.0
18.4 31.0
18.5 43.0
18.6 37.0
18.7 35.0
18.8 39.0
18.9 30.0
19 24.0
19.1 38.0
19.2 39.0
19.3 45.0
19.4 39.0
19.5 26.0
19.6 32.0
19.7 35.0
19.8 35.0
19.9 42.0
20 35.0
20.1 45.0
20.2 33.0
20.3 38.0
20.4 32.0
20.5 34.0
20.6 33.0
20.7 32.0
20.8 41.0
20.9 33.0
21 36.0
21.1 43.0
21.2 35.0
21.3 35.0
21.4 37.0
21.5 34.0
21.6 31.0
21.7 49.0
21.8 42.0
21.9 34.0
22 37.0
22.1 45.0
22.2 48.0
22.3 28.0
22.4 36.0
22.5 38.0
22.6 38.0
22.7 34.0
22.8 45.0
22.9 38.0
23 38.0
23.1 38.0
23.2 35.0
23.3 36.0
23.4 44.0
23.5 35.0
23.6 44.0
23.7 40.0
23.8 31.0
23.9 40.0
24 40.0
24.1 45.0
24.2 39.0
24.3 37.0
24.4 33.0
24.5 34.0
24.6 40.0
24.7 32.0
24.8 41.0
24.9 41.0
25 41.0
25.1 32.0
25.2 39.0
25.3 44.0
25.4 38.0
25.5 46.0
25.6 31.0
25.7 38.0
25.8 31.0
25.9 34.0
26 46.0
26.1 32.0
26.2 39.0
26.3 39.0
26.4 42.0
26.5 33.0
26.6 29.0
26.7 31.0
26.8 39.0
26.9 32.0
27 43.0
27.1 31.0
27.2 33.0
27.3 28.0
27.4 32.0
27.5 33.0
27.6 44.0
27.7 41.0
27.8 32.0
27.9 43.0
28 37.0
28.1 20.0
28.2 42.0
28.3 34.0
28.4 38.0
28.5 33.0
28.6 29.0
28.7 38.0
28.8 31.0
28.9 27.0
29 36.0
29.1 36.0
29.2 34.0
29.3 32.0
29.4 37.0
29.5 34.0
29.6 47.0
29.7 32.0
29.8 35.0
29.9 41.0
30 29.0
30.1 31.0
30.2 35.0
30.3 38.0
30.4 31.0
30.5 32.0
30.6 36.0
30.7 52.0
30.8 26.0
30.9 38.0
31 39.0
31.1 41.0
31.2 49.0
31.3 42.0
31.4 34.0
31.5 41.0
31.6 28.0
31.7 44.0
31.8 45.0
31.9 32.0
32 31.0
32.1 43.0
32.2 42.0
32.3 24.0
32.4 31.0
32.5 38.0
32.6 32.0
32.7 30.0
32.8 43.0
32.9 34.0
33 29.0
33.1 35.0
33.2 30.0
33.3 37.0
33.4 26.0
33.5 40.0
33.6 33.0
33.7 27.0
33.8 22.0
33.9 29.0
34 23.0
34.1 36.0
34.2 44.0
34.3 29.0
34.4 36.0
34.5 37.0
34.6 39.0
34.7 30.0
34.8 31.0
34.9 32.0
35 44.0
35.1 32.0
35.2 34.0
35.3 41.0
35.4 41.0
35.5 39.0
35.6 25.0
35.7 44.0
35.8 32.0
35.9 36.0
36 37.0
36.1 34.0
36.2 41.0
36.3 46.0
36.4 32.0
36.5 34.0
36.6 41.0
36.7 25.0
36.8 25.0
36.9 30.0
37 40.0
37.1 36.0
37.2 39.0
37.3 43.0
37.4 40.0
37.5 44.0
37.6 53.0
37.7 35.0
37.8 44.0
37.9 37.0
38 44.0
38.1 25.0
38.2 35.0
38.3 42.0
38.4 31.0
38.5 31.0
38.6 30.0
38.7 34.0
38.8 36.0
38.9 34.0
39 41.0
39.1 42.0
39.2 47.0
39.3 29.0
39.4 41.0
39.5 26.0
39.6 26.0
39.7 51.0
39.8 35.0
39.9 36.0
40 38.0
40.1 29.0
40.2 41.0
40.3 40.0
40.4 39.0
40.5 36.0
40.6 37.0
40.7 50.0
40.8 28.0
40.9 41.0
41 44.0
41.1 34.0
41.2 45.0
41.3 28.0
41.4 35.0
41.5 28.0
41.6 25.0
41.7 37.0
41.8 34.0
41.9 51.0
42 32.0
42.1 38.0
42.2 37.0
42.3 30.0
42.4 48.0
42.5 37.0
42.6 49.0
42.7 37.0
42.8 29.0
42.9 36.0
43 36.0
43.1 24.0
43.2 40.0
43.3 29.0
43.4 32.0
43.5 57.0
43.6 39.0
43.7 41.0
43.8 40.0
43.9 28.0
44 50.0
44.1 42.0
44.2 31.0
44.3 41.0
44.4 48.0
44.5 43.0
44.6 30.0
44.7 20.0
44.8 41.0
44.9 30.0
45 29.0
45.1 29.0
45.2 38.0
45.3 39.0
45.4 45.0
45.5 39.0
45.6 33.0
45.7 34.0
45.8 44.0
45.9 33.0
46 26.0
46.1 33.0
46.2 40.0
46.3 40.0
46.4 49.0
46.5 45.0
46.6 40.0
46.7 43.0
46.8 48.0
46.9 37.0
47 40.0
47.1 41.0
47.2 33.0
47.3 46.0
47.4 41.0
47.5 49.0
47.6 34.0
47.7 24.0
47.8 41.0
47.9 32.0
48 40.0
48.1 47.0
48.2 32.0
48.3 34.0
48.4 42.0
48.5 41.0
48.6 42.0
48.7 35.0
48.8 46.0
48.9 37.0
49 36.0
49.1 51.0
49.2 32.0
49.3 49.0
49.4 38.0
49.5 52.0
49.6 46.0
49.7 49.0
49.8 35.0
49.9 46.0
50 56.0
50.1 52.0
50.2 36.0
50.3 42.0
50.4 46.0
50.5 38.0
50.6 40.0
50.7 48.0
50.8 35.0
50.9 34.0
51 50.0
51.1 28.0
51.2 44.0
51.3 43.0
51.4 37.0
51.5 38.0
51.6 45.0
51.7 36.0
51.8 46.0
51.9 50.0
52 37.0
52.1 38.0
52.2 45.0
52.3 55.0
52.4 37.0
52.5 41.0
52.6 40.0
52.7 42.0
52.8 54.0
52.9 41.0
53 46.0
53.1 61.0
53.2 46.0
53.3 52.0
53.4 44.0
53.5 47.0
53.6 52.0
53.7 45.0
53.8 52.0
53.9 55.0
54 43.0
54.1 33.0
54.2 43.0
54.3 47.0
54.4 53.0
54.5 31.0
54.6 42.0
54.7 44.0
54.8 50.0
54.9 52.0
55 44.0
55.1 45.0
55.2 55.0
55.3 55.0
55.4 38.0
55.5 50.0
55.6 54.0
55.7 32.0
55.8 45.0
55.9 55.0
56 62.0
56.1 51.0
56.2 43.0
56.3 50.0
56.4 44.0
56.5 50.0
56.6 47.0
56.7 56.0
56.8 53.0
56.9 51.0
57 52.0
57.1 58.0
57.2 55.0
57.3 60.0
57.4 45.0
57.5 69.0
57.6 53.0
57.7 59.0
57.8 58.0
57.9 51.0
58 54.0
58.1 55.0
58.2 59.0
58.3 43.0
58.4 51.0
58.5 49.0
58.6 57.0
58.7 59.0
58.8 43.0
58.9 50.0
59 54.0
59.1 73.0
59.2 58.0
59.3 69.0
59.4 55.0
59.5 58.0
59.6 46.0
59.7 71.0
59.8 57.0
59.9 60.0
60 54.0
60.1 57.0
60.2 59.0
60.3 50.0
60.4 61.0
60.5 51.0
60.6 60.0
60.7 50.0
60.8 55.0
60.9 59.0
61 74.0
61.1 49.0
61.2 47.0
61.3 63.0
61.4 64.0
61.5 53.0
61.6 54.0
61.7 60.0
61.8 75.0
61.9 57.0
62 80.0
62.1 54.0
62.2 64.0
62.3 55.0
62.4 57.0
62.5 60.0
62.6 53.0
62.7 64.0
62.8 69.0
62.9 62.0
63 66.0
63.1 59.0
63.2 60.0
63.3 73.0
63.4 65.0
63.5 58.0
63.6 60.0
63.7 64.0
63.8 67.0
63.9 67.0
64 74.0
64.1 70.0
64.2 60.0
64.3 46.0
64.4 64.0
64.5 72.0
64.6 72.0
64.7 61.0
64.8 71.0
64.9 74.0
65 57.0
65.1 60.0
65.2 85.0
65.3 55.0
65.4 62.0
65.5 61.0
65.6 72.0
65.7 66.0
65.8 64.0
65.9 50.0
66 66.0
66.1 59.0
66.2 75.0
66.3 67.0
66.4 69.0
66.5 71.0
66.6 67.0
66.7 53.0
66.8 80.0
66.9 64.0
67 65.0
67.1 65.0
67.2 61.0
67.3 74.0
67.4 68.0
67.5 76.0
67.6 67.0
67.7 55.0
67.8 77.0
67.9 58.0
68 80.0
68.1 70.0
68.2 65.0
68.3 62.0
68.4 66.0
68.5 66.0
68.6 78.0
68.7 73.0
68.8 61.0
68.9 83.0
69 75.0
69.1 63.0
69.2 63.0
69.3 76.0
69.4 74.0
69.5 68.0
69.6 71.0
69.7 73.0
69.8 83.0
69.9 56.0
70 66.0
70.1 70.0
70.2 67.0
70.3 76.0
70.4 76.0
70.5 82.0
70.6 69.0
70.7 65.0
70.8 83.0
70.9 84.0
71 69.0
71.1 79.0
71.2 61.0
71.3 74.0
71.4 81.0
71.5 88.0
71.6 73.0
71.7 92.0
71.8 60.0
71.9 62.0
72 74.0
72.1 69.0
72.2 76.0
72.3 74.0
72.4 97.0
72.5 69.0
72.6 66.0
72.7 70.0
72.8 70.0
72.9 68.0
73 86.0
73.1 80.0
73.2 77.0
73.3 77.0
73.4 69.0
73.5 79.0
73.6 66.0
73.7 76.0
73.8 83.0
73.9 72.0
74 81.0
74.1 58.0
74.2 68.0
74.3 74.0
74.4 62.0
74.5 90.0
74.6 74.0
74.7 75.0
74.8 81.0
74.9 69.0
75 56.0
75.1 70.0
75.2 72.0
75.3 57.0
75.4 83.0
75.5 75.0
75.6 76.0
75.7 91.0
75.8 56.0
75.9 79.0
76 95.0
76.1 65.0
76.2 81.0
76.3 65.0
76.4 68.0
76.5 86.0
76.6 81.0
76.7 72.0
76.8 63.0
76.9 82.0
77 92.0
77.1 88.0
77.2 64.0
77.3 76.0
77.4 67.0
77.5 70.0
77.6 78.0
77.7 66.0
77.8 71.0
77.9 71.0
78 70.0
78.1 62.0
78.2 70.0
78.3 77.0
78.4 71.0
78.5 73.0
78.6 89.0
78.7 60.0
78.8 62.0
78.9 76.0
79 80.0
79.1 73.0
79.2 74.0
79.3 74.0
79.4 70.0
79.5 70.0
79.6 75.0
79.7 67.0
79.8 77.0
79.9 85.0
80 78.0
80.1 77.0
80.2 81.0
80.3 60.0
80.4 70.0
80.5 68.0
80.6 67.0
80.7 78.0
80.8 68.0
80.9 77.0
81 65.0
81.1 75.0
81.2 77.0
81.3 81.0
81.4 79.0
81.5 79.0
81.6 95.0
81.7 74.0
81.8 65.0
81.9 70.0
82 71.0
82.1 79.0
82.2 75.0
82.3 81.0
82.4 62.0
82.5 84.0
82.6 82.0
82.7 61.0
82.8 81.0
82.9 91.0
83 51.0
83.1 83.0
83.2 75.0
83.3 85.0
83.4 70.0
83.5 64.0
83.6 73.0
83.7 70.0
83.8 83.0
83.9 84.0
84 64.0
84.1 73.0
84.2 70.0
84.3 63.0
84.4 80.0
84.5 74.0
84.6 70.0
84.7 67.0
84.8 73.0